Folder: PVcircuit/notebooks/notebook_data

Note: README.md
# pvcircuit
optoelectronic models for tandem/multijunction solar cells

File: Si_EQE.csv
Wavelength (nm),"Central absorber in solar cell (Slab 2 - 160 Î¼m of c-Si [300 K, Sch15])"
300,0.0
310,0.0
320,0.0
330,0.0
340,0.0
350,0.0
360,0.0
370,0.0
380,0.0
390,0.0
400,0.0
410,0.0
420,0.0
430,0.0
440,0.0
450,0.0
460,5.37892e-07
470,0.0
480,6.75584e-07
490,0.0
500,0.0
510,2.70083e-06
520,5.28214e-05
530,0.000242314
540,0.000786125
550,0.002161
560,0.0048586
570,0.00991227
580,0.0170348
590,0.0263971
600,0.0358018
610,0.0479291
620,0.0584446
630,0.0680368
640,0.077451
650,0.0859851
660,0.0927505
670,0.100051
680,0.109098
690,0.120365
700,0.141859
710,0.170868
720,0.230159
730,0.307097
740,0.41868
750,0.568765
760,0.683434
770,0.811455
780,0.899573
790,0.926869
800,0.95902
810,0.95696
820,0.954282
830,0.951774
840,0.95456
850,0.953687
860,0.948899
870,0.947401
880,0.948324
890,0.947881
900,0.948275
910,0.94342
920,0.948126
930,0.942686
940,0.937256
950,0.930356
960,0.9208
970,0.909782
980,0.89079
990,0.866169
1000,0.837268
1010,0.802105
1020,0.763156
1030,0.719509
1040,0.668627
1050,0.61795
1060,0.563573
1070,0.509041
1080,0.473908
1090,0.430309
1100,0.386807
1110,0.349398
1120,0.297974
1130,0.252104
1140,0.201719
1150,0.147479
1160,0.0980192
1170,0.0545028
1180,0.0183393
1190,0.00722935
1200,0.004244
1210,0.00245731
1220,0.00143717
1230,0.000806259
1240,0.000428232
1250,0.000180654
1260,6.96231e-05
1270,3.68541e-05
1280,2.14918e-05
1290,1.27219e-05
1300,7.75065e-06